File: JRG_01_105_121923_eQCM_CV-Sn-5mM-80C_NewRef_CV05.DTA
EXPLAIN
TAG	CVEQCM
TITLE	LABEL	Cyclic Voltammetry	Test &Identifier
DATE	LABEL	12/19/2023	Date
TIME	LABEL	12:42:37	Time
APPLICATION	LABEL	Resonator	Data &Acquisition Application
NOTES	NOTES	0	&Notes...
PSTAT	PSTAT	IFC1010-20111	Potentiostat
VINIT	POTEN	0.00000E+000	T	Initial &E (V)
VLIMIT1	POTEN	-9.00000E-001	F	Scan Limit &1 (V)
VLIMIT2	POTEN	-4.00000E-001	F	Scan Limit &2 (V)
VFINAL	POTEN	0.00000E+000	T	Final &E (V)
SCANRATE	QUANT	5.00000E+001	&Scan Rate (mV/s)
STEPSIZE	QUANT	2.00000E+000	St&ep Size (mV)
CYCLES	IQUANT	5	C&ycles (#)
IMODE	SELECTOR	0	I/E Range &Mode
IRANGE	QUANT	3.00000E+000	&Max Current (mA)
AREA	QUANT	2.09000E-001	Electrode &Area (cm^2)
AREAOVERLAP	QUANT	2.05000E-001	Area of &Overlap (cm^2)
CONDIT	TWOPARAM	F	0.00000E+000	0.00000E+000	Conditionin&g	Time(s)	E(V)
DELAY	TWOPARAM	T	3.00000E+001	0.00000E+000	Init. De&lay	Time(s)	Stab.(mV/s)
EQDELAY	QUANT	5.00000E+000	Equil. &Time (s)
IRCOMP	SELECTOR	0	IRCom&p
PFCOR	QUANT	0.00000E+000	PF Corr. (ohm)
SAMPLINGMODE	SELECTOR	1	Sampling &Mode
OCVCURVE	TABLE
	Pt	T	Vf	Vm	ACH	Over
	#	s	V vs. Ref.	V	V	bits
	0	0.250000	-6.08893E-001	-6.08893E-001	0.00000E+000	...........
	1	0.500000	-6.08894E-001	-6.08900E-001	0.00000E+000	...........
	2	0.750000	-6.08894E-001	-6.08911E-001	0.00000E+000	...........
	3	1.000000	-6.08897E-001	-6.08905E-001	0.00000E+000	...........
	4	1.250000	-6.08901E-001	-6.08908E-001	0.00000E+000	...........
	5	1.500000	-6.08905E-001	-6.08929E-001	0.00000E+000	...........
	6	1.750000	-6.08909E-001	-6.08933E-001	0.00000E+000	...........
	7	2.000000	-6.08915E-001	-6.08922E-001	0.00000E+000	...........
	8	2.250000	-6.08921E-001	-6.08913E-001	0.00000E+000	...........
	9	2.500000	-6.08923E-001	-6.08916E-001	0.00000E+000	...........
	10	2.750000	-6.08922E-001	-6.08924E-001	0.00000E+000	...........
	11	3.000000	-6.08920E-001	-6.08917E-001	0.00000E+000	...........
	12	3.250000	-6.08919E-001	-6.08915E-001	0.00000E+000	...........
	13	3.500000	-6.08919E-001	-6.08941E-001	0.00000E+000	...........
	14	3.750000	-6.08920E-001	-6.08931E-001	0.00000E+000	...........
	15	4.000000	-6.08924E-001	-6.08926E-001	0.00000E+000	...........
	16	4.250000	-6.08928E-001	-6.08935E-001	0.00000E+000	...........
	17	4.500000	-6.08931E-001	-6.08946E-001	0.00000E+000	...........
	18	4.750000	-6.08933E-001	-6.08951E-001	0.00000E+000	...........
	19	5.000000	-6.08937E-001	-6.08961E-001	0.00000E+000	...........
	20	5.250000	-6.08943E-001	-6.08945E-001	0.00000E+000	...........
	21	5.500000	-6.08949E-001	-6.08953E-001	0.00000E+000	...........
	22	5.750000	-6.08951E-001	-6.08954E-001	0.00000E+000	...........
	23	6.000000	-6.08952E-001	-6.08957E-001	0.00000E+000	...........
	24	6.250000	-6.08953E-001	-6.08948E-001	0.00000E+000	...........
	25	6.500000	-6.08953E-001	-6.08948E-001	0.00000E+000	...........
	26	6.750000	-6.08952E-001	-6.08948E-001	0.00000E+000	...........
	27	7.000000	-6.08951E-001	-6.08943E-001	0.00000E+000	...........
	28	7.250000	-6.08949E-001	-6.08966E-001	0.00000E+000	...........
	29	7.500000	-6.08950E-001	-6.08972E-001	0.00000E+000	...........
	30	7.750000	-6.08953E-001	-6.08967E-001	0.00000E+000	...........
	31	8.000000	-6.08960E-001	-6.08973E-001	0.00000E+000	...........
	32	8.250000	-6.08965E-001	-6.08978E-001	0.00000E+000	...........
	33	8.500000	-6.08970E-001	-6.08981E-001	0.00000E+000	...........
	34	8.750000	-6.08973E-001	-6.08976E-001	0.00000E+000	...........
	35	9.000000	-6.08976E-001	-6.08978E-001	0.00000E+000	...........
	36	9.250000	-6.08978E-001	-6.08985E-001	0.00000E+000	...........
	37	9.500000	-6.08979E-001	-6.08995E-001	0.00000E+000	...........
	38	9.750000	-6.08982E-001	-6.08994E-001	0.00000E+000	...........
	39	10	-6.08986E-001	-6.09004E-001	0.00000E+000	...........
	40	10.25	-6.08991E-001	-6.09007E-001	0.00000E+000	...........
	41	10.5	-6.08996E-001	-6.09001E-001	0.00000E+000	...........
	42	10.75	-6.09000E-001	-6.08998E-001	0.00000E+000	...........
	43	11	-6.09002E-001	-6.09002E-001	0.00000E+000	...........
	44	11.25	-6.09002E-001	-6.09006E-001	0.00000E+000	...........
	45	11.5	-6.09002E-001	-6.09007E-001	0.00000E+000	...........
	46	11.75	-6.09003E-001	-6.09012E-001	0.00000E+000	...........
	47	12	-6.09005E-001	-6.09009E-001	0.00000E+000	...........
	48	12.25	-6.09007E-001	-6.09015E-001	0.00000E+000	...........
	49	12.5	-6.09010E-001	-6.09018E-001	0.00000E+000	...........
	50	12.75	-6.09012E-001	-6.09023E-001	0.00000E+000	...........
	51	13	-6.09015E-001	-6.09014E-001	0.00000E+000	...........
	52	13.25	-6.09017E-001	-6.09033E-001	0.00000E+000	...........
	53	13.5	-6.09020E-001	-6.09039E-001	0.00000E+000	...........
	54	13.75	-6.09024E-001	-6.09030E-001	0.00000E+000	...........
	55	14	-6.09028E-001	-6.09049E-001	0.00000E+000	...........
	56	14.25	-6.09033E-001	-6.09030E-001	0.00000E+000	...........
	57	14.5	-6.09036E-001	-6.09024E-001	0.00000E+000	...........
	58	14.75	-6.09037E-001	-6.09063E-001	0.00000E+000	...........
	59	15	-6.09037E-001	-6.09035E-001	0.00000E+000	...........
	60	15.25	-6.09039E-001	-6.09037E-001	0.00000E+000	...........
	61	15.5	-6.09040E-001	-6.09029E-001	0.00000E+000	...........
	62	15.75	-6.09040E-001	-6.09050E-001	0.00000E+000	...........
	63	16	-6.09039E-001	-6.09046E-001	0.00000E+000	...........
	64	16.25	-6.09040E-001	-6.09037E-001	0.00000E+000	...........
	65	16.5	-6.09042E-001	-6.09056E-001	0.00000E+000	...........
	66	16.75	-6.09044E-001	-6.09063E-001	0.00000E+000	...........
	67	17	-6.09047E-001	-6.09044E-001	0.00000E+000	...........
	68	17.25	-6.09050E-001	-6.09050E-001	0.00000E+000	...........
	69	17.5	-6.09052E-001	-6.09057E-001	0.00000E+000	...........
	70	17.75	-6.09052E-001	-6.09060E-001	0.00000E+000	...........
	71	18	-6.09053E-001	-6.09060E-001	0.00000E+000	...........
	72	18.25	-6.09056E-001	-6.09069E-001	0.00000E+000	...........
	73	18.5	-6.09059E-001	-6.09061E-001	0.00000E+000	...........
	74	18.75	-6.09061E-001	-6.09059E-001	0.00000E+000	...........
	75	19	-6.09063E-001	-6.09070E-001	0.00000E+000	...........
	76	19.25	-6.09063E-001	-6.09069E-001	0.00000E+000	...........
	77	19.5	-6.09065E-001	-6.09086E-001	0.00000E+000	...........
	78	19.75	-6.09068E-001	-6.09084E-001	0.00000E+000	...........
	79	20	-6.09073E-001	-6.09068E-001	0.00000E+000	...........
	80	20.25	-6.09077E-001	-6.09079E-001	0.00000E+000	...........
	81	20.5	-6.09078E-001	-6.09091E-001	0.00000E+000	...........
	82	20.75	-6.09079E-001	-6.09082E-001	0.00000E+000	...........
	83	21	-6.09080E-001	-6.09074E-001	0.00000E+000	...........
	84	21.25	-6.09081E-001	-6.09076E-001	0.00000E+000	...........
	85	21.5	-6.09081E-001	-6.09081E-001	0.00000E+000	...........
	86	21.75	-6.09079E-001	-6.09081E-001	0.00000E+000	...........
	87	22	-6.09079E-001	-6.09078E-001	0.00000E+000	...........
	88	22.25	-6.09079E-001	-6.09085E-001	0.00000E+000	...........
	89	22.5	-6.09080E-001	-6.09068E-001	0.00000E+000	...........
	90	22.75	-6.09080E-001	-6.09084E-001	0.00000E+000	...........
	91	23	-6.09079E-001	-6.09082E-001	0.00000E+000	...........
	92	23.25	-6.09079E-001	-6.09111E-001	0.00000E+000	...........
	93	23.5	-6.09083E-001	-6.09092E-001	0.00000E+000	...........
	94	23.75	-6.09088E-001	-6.09086E-001	0.00000E+000	...........
	95	24	-6.09092E-001	-6.09094E-001	0.00000E+000	...........
	96	24.25	-6.09093E-001	-6.09090E-001	0.00000E+000	...........
	97	24.5	-6.09093E-001	-6.09100E-001	0.00000E+000	...........
	98	24.75	-6.09093E-001	-6.09100E-001	0.00000E+000	...........
	99	25	-6.09094E-001	-6.09101E-001	0.00000E+000	...........
	100	25.25	-6.09097E-001	-6.09114E-001	0.00000E+000	...........
	101	25.5	-6.09100E-001	-6.09107E-001	0.00000E+000	...........
	102	25.75	-6.09104E-001	-6.09102E-001	0.00000E+000	...........
	103	26	-6.09106E-001	-6.09115E-001	0.00000E+000	...........
	104	26.25	-6.09107E-001	-6.09107E-001	0.00000E+000	...........
	105	26.5	-6.09109E-001	-6.09125E-001	0.00000E+000	...........
	106	26.75	-6.09111E-001	-6.09113E-001	0.00000E+000	...........
	107	27	-6.09113E-001	-6.09124E-001	0.00000E+000	...........
	108	27.25	-6.09116E-001	-6.09137E-001	0.00000E+000	...........
	109	27.5	-6.09120E-001	-6.09127E-001	0.00000E+000	...........
	110	27.75	-6.09124E-001	-6.09124E-001	0.00000E+000	...........
	111	28	-6.09127E-001	-6.09126E-001	0.00000E+000	...........
	112	28.25	-6.09128E-001	-6.09123E-001	0.00000E+000	...........
	113	28.5	-6.09127E-001	-6.09129E-001	0.00000E+000	...........
	114	28.75	-6.09126E-001	-6.09139E-001	0.00000E+000	...........
	115	29	-6.09128E-001	-6.09142E-001	0.00000E+000	...........
	116	29.25	-6.09131E-001	-6.09145E-001	0.00000E+000	...........
	117	29.5	-6.09136E-001	-6.09129E-001	0.00000E+000	...........
	118	29.75	-6.09138E-001	-6.09136E-001	0.00000E+000	...........
	119	30	-6.09138E-001	-6.09128E-001	0.00000E+000	...........
QCMOCVOFFSETTIME	QUANT	887.692	QCM Offset Time (s)
QCMOCVCurve	DTABLE
	Pt	T	fs	fp	chisq	As	Ap
	#	s	MHz	MHz	arb	Mag	Mag
	1890	887.692	9.95183	9.96876	0.000	1.31564	1.38991
	1891	888.152	9.95188	9.96874	0.000	1.31577	1.38987
	1892	888.622	9.95187	9.96874	0.000	1.31578	1.38989
	1893	889.097	9.95188	9.96875	0.000	1.31579	1.38986
	1894	889.562	9.95188	9.96875	0.000	1.31575	1.38987
	1895	890.022	9.95187	9.96874	0.000	1.31578	1.3899
	1896	890.492	9.95188	9.96874	0.000	1.31575	1.38988
	1897	890.967	9.95187	9.96876	0.000	1.31578	1.38985
	1898	891.432	9.95188	9.96873	0.000	1.31576	1.38985
	1899	891.892	9.95187	9.96874	0.000	1.31574	1.38985
	1900	892.357	9.95186	9.96873	0.000	1.31578	1.38987
	1901	892.832	9.95186	9.96873	0.000	1.31576	1.38987
	1902	893.302	9.95186	9.96872	0.000	1.31575	1.38986
	1903	893.762	9.95187	9.96871	0.000	1.31572	1.38978
	1904	894.227	9.95185	9.96874	0.000	1.31574	1.38981
	1905	894.702	9.95186	9.96874	0.000	1.31574	1.38981
	1906	895.172	9.95186	9.96874	0.000	1.31573	1.38981
	1907	895.632	9.95186	9.9687	0.000	1.31571	1.3898
	1908	896.097	9.95185	9.96874	0.000	1.31569	1.38979
	1909	896.572	9.95185	9.96872	0.000	1.31572	1.38982
	1910	897.042	9.95185	9.96872	0.000	1.3157	1.38981
	1911	897.502	9.95184	9.96874	0.000	1.31576	1.3898
	1912	897.967	9.95185	9.96872	0.000	1.31572	1.38981
	1913	898.432	9.95184	9.96873	0.000	1.31566	1.38982
	1914	898.902	9.95185	9.96872	0.000	1.31569	1.38981
	1915	899.377	9.95185	9.9687	0.000	1.3157	1.38979
	1916	899.842	9.95184	9.96871	0.000	1.31569	1.38978
	1917	900.302	9.95185	9.9687	0.000	1.31569	1.38978
	1918	900.772	9.95184	9.9687	0.000	1.3157	1.38978
	1919	901.247	9.95184	9.9687	0.000	1.31566	1.38977
	1920	901.712	9.95184	9.96872	0.000	1.31564	1.38973
	1921	902.172	9.95184	9.96871	0.000	1.31569	1.38978
	1922	902.642	9.95183	9.9687	0.000	1.31568	1.38976
	1923	903.117	9.95183	9.9687	0.000	1.31571	1.3898
	1924	903.582	9.95183	9.9687	0.000	1.31567	1.38975
	1925	904.042	9.95184	9.96871	0.000	1.31565	1.38974
	1926	904.512	9.95182	9.96869	0.000	1.31571	1.3898
	1927	904.987	9.95182	9.96869	0.000	1.31568	1.38975
	1928	905.452	9.95182	9.9687	0.000	1.31564	1.38971
	1929	905.912	9.95182	9.96869	0.000	1.31567	1.38975
	1930	906.377	9.95182	9.9687	0.000	1.31568	1.38975
	1931	906.852	9.95183	9.96867	0.000	1.31563	1.38974
	1932	907.322	9.95182	9.96869	0.000	1.3157	1.38974
	1933	907.782	9.95182	9.96868	0.000	1.31568	1.38974
	1934	908.247	9.95182	9.96867	0.000	1.31566	1.3897
	1935	908.722	9.95182	9.96868	0.000	1.31566	1.38972
	1936	909.192	9.95182	9.96869	0.000	1.31565	1.38968
	1937	909.652	9.95181	9.96868	0.000	1.31568	1.38974
	1938	910.117	9.95182	9.96868	0.000	1.3156	1.3897
	1939	910.592	9.95182	9.96867	0.000	1.31561	1.38968
	1940	911.062	9.95181	9.96867	0.000	1.31566	1.38973
	1941	911.522	9.95181	9.96866	0.000	1.31563	1.38972
	1942	911.987	9.95181	9.96866	0.000	1.31564	1.38974
	1943	912.452	9.9518	9.96866	0.000	1.31568	1.38974
	1944	912.922	9.9518	9.96868	0.000	1.31564	1.38972
	1945	913.392	9.9518	9.96868	0.000	1.31564	1.38973
	1946	913.862	9.95181	9.96866	0.000	1.31565	1.3897
	1947	914.337	9.9518	9.96867	0.000	1.31567	1.38971
	1948	914.812	9.9518	9.96866	0.000	1.31562	1.38971
	1949	915.282	9.9518	9.96867	0.000	1.31564	1.38965
	1950	915.742	9.9518	9.96865	0.000	1.31564	1.3897
	1951	916.207	9.9518	9.96865	0.000	1.31566	1.3897
	1952	916.682	9.95179	9.96866	0.000	1.31565	1.3897
	1953	917.152	9.95179	9.96866	0.000	1.3156	1.38966
EOC	QUANT	-6.09138E-001	Open Circuit (V)
PSTATMODEL	IQUANT	64	PstatModel
PSTATSECTION	LABEL	IFC1010-20111	Pstat Section
PSTATSERIALNO	LABEL	20111	Pstat Serial Number
CTRLMODE	IQUANT	1	Control Mode
IESTAB	IQUANT	2	I/E Stability
CASPEED	IQUANT	6	Control Amp Speed
CONVENTION	IQUANT	1	Current Convention
ICHRANGE	IQUANT	2	Ich Range
ICHRANGEMODE	TOGGLE	T	Ich Auto Range
ICHOFFSETENABLE	TOGGLE	F	Ich Offset Enable
ICHOFFSET	QUANT	0.000000	Ich Offset (V)
ICHFILTER	IQUANT	3	Ich Filter
VCHRANGE	IQUANT	2	Vch Range
VCHRANGEMODE	TOGGLE	T	Vch Auto Range
VCHOFFSETENABLE	TOGGLE	F	Vch Offset Enable
VCHOFFSET	QUANT	0.000000	Vch Offset (V)
VCHFILTER	IQUANT	3	Vch Filter
ACHRANGE	IQUANT	2	Ach Range
IERANGELOWERLIMIT	IQUANT	4	I/E Range Lower Limit
IERANGEMODE	TOGGLE	F	I/E AutoRange
IERANGE	IQUANT	11	I/E Range
POSFEEDENABLE	TOGGLE	F	Positive Feedback IR Comp
POSFEEDRESISTANCE	QUANT	0.000000	Positive Feedback Resistance (ohm)
DCCALDATE	LABEL	12/5/2022	DC Calibration Date
ACCALDATE	LABEL	12/17/2017	AC Calibration Date
FRAMEWORKVERSION	QUANT	7.06	Framework Version
CURVE1	TABLE
	Pt	T	Q	Vf	Im	Vu	Sig	ACH	IERange	Over
	#	s	C	V vs. Ref.	A	V	V	V	#	bits
	120	0.040000	8.37392E-004	-6.09689E-001	-2.31198E-006	0.00000E+000	-6.09135E-001	0.00000E+000	10	...........
	121	0.080000	8.37033E-004	-6.11670E-001	-8.98407E-006	0.00000E+000	-6.11133E-001	0.00000E+000	9	...........
	122	0.120000	8.36444E-004	-6.13718E-001	-1.47205E-005	0.00000E+000	-6.13143E-001	0.00000E+000	8	...........
	123	0.160000	8.35636E-004	-6.15702E-001	-2.01919E-005	0.00000E+000	-6.15140E-001	0.00000E+000	8	...........
	124	0.200000	8.34592E-004	-6.17715E-001	-2.61186E-005	0.00000E+000	-6.17138E-001	0.00000E+000	8	...........
	125	0.240000	8.33324E-004	-6.19739E-001	-3.17049E-005	0.00000E+000	-6.19135E-001	0.00000E+000	8	...........
	126	0.280000	8.31815E-004	-6.21726E-001	-3.77204E-005	0.00000E+000	-6.21133E-001	0.00000E+000	8	...........
	127	0.320000	8.30057E-004	-6.23762E-001	-4.39483E-005	0.00000E+000	-6.23143E-001	0.00000E+000	8	...........
	128	0.360000	8.28053E-004	-6.25765E-001	-5.01064E-005	0.00000E+000	-6.25140E-001	0.00000E+000	8	...........
	129	0.400000	8.25777E-004	-6.27777E-001	-5.68936E-005	0.00000E+000	-6.27138E-001	0.00000E+000	8	...........
	130	0.440000	8.23244E-004	-6.29801E-001	-6.33243E-005	0.00000E+000	-6.29135E-001	0.00000E+000	8	...........
	131	0.480000	8.20426E-004	-6.31801E-001	-7.04411E-005	0.00000E+000	-6.31133E-001	0.00000E+000	8	...........
	132	0.520000	8.17329E-004	-6.33837E-001	-7.74207E-005	0.00000E+000	-6.33143E-001	0.00000E+000	8	...........
	133	0.560000	8.13942E-004	-6.35812E-001	-8.46858E-005	0.00000E+000	-6.35141E-001	0.00000E+000	8	...........
	134	0.600000	8.10262E-004	-6.37823E-001	-9.20048E-005	0.00000E+000	-6.37138E-001	0.00000E+000	8	...........
	135	0.640000	8.06376E-004	-6.39714E-001	-9.71378E-005	0.00000E+000	-6.39136E-001	0.00000E+000	9	...........
	136	0.680000	8.02141E-004	-6.41730E-001	-1.05888E-004	0.00000E+000	-6.41133E-001	0.00000E+000	9	...........
	137	0.720000	7.97606E-004	-6.43764E-001	-1.13364E-004	0.00000E+000	-6.43143E-001	0.00000E+000	9	...........
	138	0.760000	7.92761E-004	-6.45741E-001	-1.21118E-004	0.00000E+000	-6.45141E-001	0.00000E+000	9	...........
	139	0.800000	7.87610E-004	-6.47750E-001	-1.28787E-004	0.00000E+000	-6.47138E-001	0.00000E+000	9	...........
	140	0.840000	7.82159E-004	-6.49758E-001	-1.36269E-004	0.00000E+000	-6.49136E-001	0.00000E+000	9	...........
	141	0.880000	7.76396E-004	-6.51747E-001	-1.44064E-004	0.00000E+000	-6.51133E-001	0.00000E+000	9	...........
	142	0.920000	7.70334E-004	-6.53793E-001	-1.51568E-004	0.00000E+000	-6.53143E-001	0.00000E+000	9	...........
	143	0.960000	7.63973E-004	-6.55792E-001	-1.59013E-004	0.00000E+000	-6.55141E-001	0.00000E+000	9	...........
	144	1.000000	7.57307E-004	-6.57786E-001	-1.66651E-004	0.00000E+000	-6.57138E-001	0.00000E+000	9	...........
	145	1.040000	7.50368E-004	-6.59778E-001	-1.73487E-004	0.00000E+000	-6.59136E-001	0.00000E+000	9	...........
	146	1.080000	7.43126E-004	-6.61786E-001	-1.81055E-004	0.00000E+000	-6.61134E-001	0.00000E+000	9	...........
	147	1.120000	7.35622E-004	-6.63797E-001	-1.87593E-004	0.00000E+000	-6.63144E-001	0.00000E+000	9	...........
	148	1.160000	7.27862E-004	-6.65780E-001	-1.93993E-004	0.00000E+000	-6.65141E-001	0.00000E+000	9	...........
	149	1.200000	7.19872E-004	-6.67802E-001	-1.99752E-004	0.00000E+000	-6.67139E-001	0.00000E+000	9	...........
	150	1.240000	7.11699E-004	-6.69805E-001	-2.04313E-004	0.00000E+000	-6.69136E-001	0.00000E+000	9	...........
	151	1.280000	7.03336E-004	-6.71802E-001	-2.09097E-004	0.00000E+000	-6.71134E-001	0.00000E+000	9	...........
	152	1.320000	6.94843E-004	-6.73832E-001	-2.12324E-004	0.00000E+000	-6.73144E-001	0.00000E+000	9	...........
	153	1.360000	6.86220E-004	-6.75819E-001	-2.15573E-004	0.00000E+000	-6.75141E-001	0.00000E+000	9	...........
	154	1.400000	6.77503E-004	-6.77817E-001	-2.17912E-004	0.00000E+000	-6.77139E-001	0.00000E+000	9	...........
	155	1.440000	6.68708E-004	-6.79826E-001	-2.19879E-004	0.00000E+000	-6.79136E-001	0.00000E+000	9	...........
	156	1.480000	6.59831E-004	-6.81814E-001	-2.21928E-004	0.00000E+000	-6.81134E-001	0.00000E+000	9	...........
	157	1.520000	6.50903E-004	-6.83833E-001	-2.23203E-004	0.00000E+000	-6.83144E-001	0.00000E+000	9	...........
	158	1.560000	6.41911E-004	-6.85823E-001	-2.24804E-004	0.00000E+000	-6.85141E-001	0.00000E+000	9	...........
	159	1.600000	6.32865E-004	-6.87829E-001	-2.26137E-004	0.00000E+000	-6.87139E-001	0.00000E+000	9	...........
	160	1.640000	6.23772E-004	-6.89823E-001	-2.27327E-004	0.00000E+000	-6.89137E-001	0.00000E+000	9	...........
	161	1.680000	6.14617E-004	-6.91806E-001	-2.28878E-004	0.00000E+000	-6.91134E-001	0.00000E+000	9	...........
	162	1.720000	6.05420E-004	-6.93854E-001	-2.29929E-004	0.00000E+000	-6.93144E-001	0.00000E+000	9	...........
	163	1.760000	5.96165E-004	-6.95835E-001	-2.31379E-004	0.00000E+000	-6.95142E-001	0.00000E+000	9	...........
	164	1.800000	5.86853E-004	-6.97856E-001	-2.32799E-004	0.00000E+000	-6.97139E-001	0.00000E+000	9	...........
	165	1.840000	5.77494E-004	-6.99836E-001	-2.33973E-004	0.00000E+000	-6.99137E-001	0.00000E+000	9	...........
	166	1.880000	5.68064E-004	-7.01831E-001	-2.35736E-004	0.00000E+000	-7.01134E-001	0.00000E+000	9	...........
	167	1.920000	5.58587E-004	-7.03847E-001	-2.36935E-004	0.00000E+000	-7.03144E-001	0.00000E+000	9	...........
	168	1.960000	5.49036E-004	-7.05860E-001	-2.38767E-004	0.00000E+000	-7.05142E-001	0.00000E+000	9	...........
	169	2.000000	5.39426E-004	-7.07869E-001	-2.40246E-004	0.00000E+000	-7.07139E-001	0.00000E+000	9	...........
	170	2.040000	5.29756E-004	-7.09830E-001	-2.41764E-004	0.00000E+000	-7.09137E-001	0.00000E+000	9	...........
	171	2.080000	5.20005E-004	-7.11854E-001	-2.43773E-004	0.00000E+000	-7.11134E-001	0.00000E+000	9	...........
	172	2.120000	5.10198E-004	-7.13854E-001	-2.45181E-004	0.00000E+000	-7.13144E-001	0.00000E+000	9	...........
	173	2.160000	5.00308E-004	-7.15845E-001	-2.47246E-004	0.00000E+000	-7.15142E-001	0.00000E+000	9	...........
	174	2.200000	4.90351E-004	-7.17865E-001	-2.48926E-004	0.00000E+000	-7.17140E-001	0.00000E+000	9	...........
	175	2.240000	4.80319E-004	-7.19870E-001	-2.50808E-004	0.00000E+000	-7.19137E-001	0.00000E+000	9	...........
	176	2.280000	4.70204E-004	-7.21862E-001	-2.52862E-004	0.00000E+000	-7.21135E-001	0.00000E+000	9	...........
	177	2.320000	4.60021E-004	-7.23862E-001	-2.54577E-004	0.00000E+000	-7.23132E-001	0.00000E+000	9	...........
	178	2.360000	4.49751E-004	-7.25865E-001	-2.56742E-004	0.00000E+000	-7.25142E-001	0.00000E+000	9	...........
	179	2.400000	4.39406E-004	-7.27883E-001	-2.58643E-004	0.00000E+000	-7.27140E-001	0.00000E+000	9	...........
	180	2.440000	4.28980E-004	-7.29858E-001	-2.60632E-004	0.00000E+000	-7.29137E-001	0.00000E+000	9	...........
	181	2.480000	4.18467E-004	-7.31884E-001	-2.62830E-004	0.00000E+000	-7.31135E-001	0.00000E+000	9	...........
	182	2.520000	4.07881E-004	-7.33886E-001	-2.64654E-004	0.00000E+000	-7.33132E-001	0.00000E+000	9	...........
	183	2.560000	3.97202E-004	-7.35896E-001	-2.66966E-004	0.00000E+000	-7.35142E-001	0.00000E+000	9	...........
	184	2.600000	3.86446E-004	-7.37898E-001	-2.68909E-004	0.00000E+000	-7.37140E-001	0.00000E+000	9	...........
	185	2.640000	3.75605E-004	-7.39896E-001	-2.71028E-004	0.00000E+000	-7.39137E-001	0.00000E+000	9	...........
	186	2.680000	3.64672E-004	-7.41905E-001	-2.73322E-004	0.00000E+000	-7.41135E-001	0.00000E+000	9	...........
	187	2.720000	3.53665E-004	-7.43911E-001	-2.75162E-004	0.00000E+000	-7.43133E-001	0.00000E+000	9	...........
	188	2.760000	3.42563E-004	-7.45918E-001	-2.77573E-004	0.00000E+000	-7.45143E-001	0.00000E+000	9	...........
	189	2.800000	3.31381E-004	-7.47927E-001	-2.79541E-004	0.00000E+000	-7.47140E-001	0.00000E+000	9	...........
	190	2.840000	3.20110E-004	-7.49916E-001	-2.81777E-004	0.00000E+000	-7.49138E-001	0.00000E+000	9	...........
	191	2.880000	3.08752E-004	-7.51896E-001	-2.83944E-004	0.00000E+000	-7.51135E-001	0.00000E+000	9	...........
	192	2.920000	2.97315E-004	-7.53910E-001	-2.85920E-004	0.00000E+000	-7.53133E-001	0.00000E+000	9	...........
	193	2.960000	2.85784E-004	-7.55906E-001	-2.88279E-004	0.00000E+000	-7.55143E-001	0.00000E+000	9	...........
	194	3.000000	2.74174E-004	-7.57922E-001	-2.90260E-004	0.00000E+000	-7.57140E-001	0.00000E+000	9	...........
	195	3.040000	2.62475E-004	-7.59931E-001	-2.92462E-004	0.00000E+000	-7.59138E-001	0.00000E+000	9	...........
	196	3.080000	2.50689E-004	-7.61930E-001	-2.94645E-004	0.00000E+000	-7.61135E-001	0.00000E+000	9	...........
	197	3.120000	2.38827E-004	-7.63923E-001	-2.96554E-004	0.00000E+000	-7.63133E-001	0.00000E+000	9	...........
	198	3.160000	2.26873E-004	-7.65931E-001	-2.98845E-004	0.00000E+000	-7.65143E-001	0.00000E+000	9	...........
	199	3.200000	2.14841E-004	-7.67935E-001	-3.00816E-004	0.00000E+000	-7.67140E-001	0.00000E+000	9	...........
	200	3.240000	2.02724E-004	-7.69941E-001	-3.02909E-004	0.00000E+000	-7.69138E-001	0.00000E+000	9	...........
	201	3.280000	1.90522E-004	-7.71961E-001	-3.05059E-004	0.00000E+000	-7.71136E-001	0.00000E+000	9	...........
	202	3.320000	1.78247E-004	-7.73959E-001	-3.06871E-004	0.00000E+000	-7.73133E-001	0.00000E+000	9	...........
	203	3.360000	1.65882E-004	-7.75950E-001	-3.09135E-004	0.00000E+000	-7.75143E-001	0.00000E+000	9	...........
	204	3.400000	1.53443E-004	-7.77972E-001	-3.10975E-004	0.00000E+000	-7.77141E-001	0.00000E+000	9	...........
	205	3.440000	1.40921E-004	-7.79959E-001	-3.13050E-004	0.00000E+000	-7.79138E-001	0.00000E+000	9	...........
	206	3.480000	1.28319E-004	-7.81988E-001	-3.15053E-004	0.00000E+000	-7.81136E-001	0.00000E+000	9	...........
	207	3.520000	1.15646E-004	-7.83977E-001	-3.16813E-004	0.00000E+000	-7.83133E-001	0.00000E+000	9	...........
	208	3.560000	1.02887E-004	-7.85978E-001	-3.18977E-004	0.00000E+000	-7.85143E-001	0.00000E+000	9	...........
	209	3.600000	9.00576E-005	-7.87972E-001	-3.20734E-004	0.00000E+000	-7.87141E-001	0.00000E+000	9	...........
	210	3.640000	7.71507E-005	-7.89959E-001	-3.22674E-004	0.00000E+000	-7.89138E-001	0.00000E+000	9	...........
	211	3.680000	6.41670E-005	-7.91983E-001	-3.24592E-004	0.00000E+000	-7.91136E-001	0.00000E+000	9	...........
	212	3.720000	5.11131E-005	-7.93972E-001	-3.26346E-004	0.00000E+000	-7.93133E-001	0.00000E+000	9	...........
	213	3.760000	3.79813E-005	-7.95986E-001	-3.28295E-004	0.00000E+000	-7.95143E-001	0.00000E+000	9	...........
	214	3.800000	2.47806E-005	-7.98009E-001	-3.30018E-004	0.00000E+000	-7.97141E-001	0.00000E+000	9	...........
	215	3.840000	1.15048E-005	-8.00009E-001	-3.31895E-004	0.00000E+000	-7.99138E-001	0.00000E+000	9	...........
	216	3.880000	-1.84475E-006	-8.02005E-001	-3.33739E-004	0.00000E+000	-8.01136E-001	0.00000E+000	9	...........
	217	3.920000	-1.52561E-005	-8.03983E-001	-3.35284E-004	0.00000E+000	-8.03134E-001	0.00000E+000	9	...........
	218	3.960000	-2.87467E-005	-8.05998E-001	-3.37264E-004	0.00000E+000	-8.05144E-001	0.00000E+000	9	...........
	219	4.000000	-4.22994E-005	-8.08013E-001	-3.38817E-004	0.00000E+000	-8.07141E-001	0.00000E+000	9	...........
	220	4.040000	-5.59227E-005	-8.10007E-001	-3.40584E-004	0.00000E+000	-8.09139E-001	0.00000E+000	9	...........
	221	4.080000	-6.96150E-005	-8.12012E-001	-3.42308E-004	0.00000E+000	-8.11136E-001	0.00000E+000	9	...........
	222	4.120000	-8.33672E-005	-8.14012E-001	-3.43804E-004	0.00000E+000	-8.13134E-001	0.00000E+000	9	...........
	223	4.160000	-9.71927E-005	-8.16016E-001	-3.45639E-004	0.00000E+000	-8.15144E-001	0.00000E+000	9	...........
	224	4.200000	-1.11076E-004	-8.18016E-001	-3.47083E-004	0.00000E+000	-8.17141E-001	0.00000E+000	9	...........
	225	4.240000	-1.25027E-004	-8.20004E-001	-3.48774E-004	0.00000E+000	-8.19139E-001	0.00000E+000	9	...........
	226	4.280000	-1.39038E-004	-8.22011E-001	-3.50281E-004	0.00000E+000	-8.21136E-001	0.00000E+000	9	...........
	227	4.320000	-1.53109E-004	-8.24024E-001	-3.51770E-004	0.00000E+000	-8.23134E-001	0.00000E+000	9	...........
	228	4.360000	-1.67245E-004	-8.26027E-001	-3.53411E-004	0.00000E+000	-8.25144E-001	0.00000E+000	9	...........
	229	4.400000	-1.81437E-004	-8.28025E-001	-3.54790E-004	0.00000E+000	-8.27142E-001	0.00000E+000	9	...........
	230	4.440000	-1.95688E-004	-8.30033E-001	-3.56262E-004	0.00000E+000	-8.29139E-001	0.00000E+000	9	...........
	231	4.480000	-2.09997E-004	-8.32033E-001	-3.57729E-004	0.00000E+000	-8.31137E-001	0.00000E+000	9	...........
	232	4.520000	-2.24358E-004	-8.34047E-001	-3.59023E-004	0.00000E+000	-8.33134E-001	0.00000E+000	9	...........
	233	4.560000	-2.38779E-004	-8.36043E-001	-3.60532E-004	0.00000E+000	-8.35144E-001	0.00000E+000	9	...........
	234	4.600000	-2.53249E-004	-8.38045E-001	-3.61740E-004	0.00000E+000	-8.37142E-001	0.00000E+000	9	...........
	235	4.640000	-2.67771E-004	-8.40038E-001	-3.63067E-004	0.00000E+000	-8.39139E-001	0.00000E+000	9	...........
	236	4.680000	-2.82347E-004	-8.42058E-001	-3.64386E-004	0.00000E+000	-8.41137E-001	0.00000E+000	9	...........
	237	4.720000	-2.96964E-004	-8.44030E-001	-3.65430E-004	0.00000E+000	-8.43134E-001	0.00000E+000	9	...........
	238	4.760000	-3.11636E-004	-8.46060E-001	-3.66807E-004	0.00000E+000	-8.45144E-001	0.00000E+000	9	...........
	239	4.800000	-3.26349E-004	-8.48064E-001	-3.67825E-004	0.00000E+000	-8.47142E-001	0.00000E+000	9	...........
	240	4.840000	-3.41110E-004	-8.50060E-001	-3.69029E-004	0.00000E+000	-8.49139E-001	0.00000E+000	9	...........
	241	4.880000	-3.55914E-004	-8.52059E-001	-3.70083E-004	0.00000E+000	-8.51137E-001	0.00000E+000	9	...........
	242	4.920000	-3.70755E-004	-8.54060E-001	-3.71026E-004	0.00000E+000	-8.53135E-001	0.00000E+000	9	...........
	243	4.960000	-3.85641E-004	-8.56046E-001	-3.72167E-004	0.00000E+000	-8.55132E-001	0.00000E+000	9	...........
	244	5.000000	-4.00562E-004	-8.58059E-001	-3.73007E-004	0.00000E+000	-8.57142E-001	0.00000E+000	9	...........
	245	5.040000	-4.15523E-004	-8.60085E-001	-3.74044E-004	0.00000E+000	-8.59140E-001	0.00000E+000	9	...........
	246	5.080000	-4.30520E-004	-8.62084E-001	-3.74925E-004	0.00000E+000	-8.61137E-001	0.00000E+000	9	...........
	247	5.120000	-4.45551E-004	-8.64078E-001	-3.75766E-004	0.00000E+000	-8.63135E-001	0.00000E+000	9	...........
	248	5.160000	-4.60621E-004	-8.66086E-001	-3.76753E-004	0.00000E+000	-8.65132E-001	0.00000E+000	9	...........
	249	5.200000	-4.75722E-004	-8.68074E-001	-3.77507E-004	0.00000E+000	-8.67142E-001	0.00000E+000	9	...........
	250	5.240000	-4.90857E-004	-8.70082E-001	-3.78380E-004	0.00000E+000	-8.69140E-001	0.00000E+000	9	...........
	251	5.280000	-5.06022E-004	-8.72106E-001	-3.79145E-004	0.00000E+000	-8.71137E-001	0.00000E+000	9	...........
	252	5.320000	-5.21215E-004	-8.74101E-001	-3.79812E-004	0.00000E+000	-8.73135E-001	0.00000E+000	9	...........
	253	5.360000	-5.36441E-004	-8.76102E-001	-3.80647E-004	0.00000E+000	-8.75132E-001	0.00000E+000	9	...........
	254	5.400000	-5.51689E-004	-8.78113E-001	-3.81214E-004	0.00000E+000	-8.77142E-001	0.00000E+000	9	...........
	255	5.440000	-5.66967E-004	-8.80106E-001	-3.81938E-004	0.00000E+000	-8.79140E-001	0.00000E+000	9	...........
	256	5.480000	-5.82266E-004	-8.82112E-001	-3.82480E-004	0.00000E+000	-8.81137E-001	0.00000E+000	9	...........
	257	5.520000	-5.97584E-004	-8.84100E-001	-3.82953E-004	0.00000E+000	-8.83135E-001	0.00000E+000	9	...........
	258	5.560000	-6.12928E-004	-8.86120E-001	-3.83584E-004	0.00000E+000	-8.85133E-001	0.00000E+000	9	...........
	259	5.600000	-6.28285E-004	-8.88132E-001	-3.83941E-004	0.00000E+000	-8.87143E-001	0.00000E+000	9	...........
	260	5.640000	-6.43663E-004	-8.90110E-001	-3.84435E-004	0.00000E+000	-8.89140E-001	0.00000E+000	9	...........
	261	5.680000	-6.59052E-004	-8.92116E-001	-3.84735E-004	0.00000E+000	-8.91138E-001	0.00000E+000	9	...........
	262	5.720000	-6.74453E-004	-8.94126E-001	-3.85014E-004	0.00000E+000	-8.93135E-001	0.00000E+000	9	...........
	263	5.760000	-6.89867E-004	-8.96106E-001	-3.85357E-004	0.00000E+000	-8.95133E-001	0.00000E+000	9	...........
	264	5.800000	-7.05286E-004	-8.98136E-001	-3.85480E-004	0.00000E+000	-8.97143E-001	0.00000E+000	9	...........
	265	5.840000	-7.20713E-004	-9.00141E-001	-3.85684E-004	0.00000E+000	-8.99140E-001	0.00000E+000	9	...........
	266	5.880000	-7.35942E-004	-8.98135E-001	-3.80706E-004	0.00000E+000	-8.97143E-001	0.00000E+000	9	...........
	267	5.920000	-7.50994E-004	-8.96111E-001	-3.76314E-004	0.00000E+000	-8.95133E-001	0.00000E+000	9	...........
	268	5.960000	-7.65892E-004	-8.94117E-001	-3.72440E-004	0.00000E+000	-8.93135E-001	0.00000E+000	9	...........
	269	6.000000	-7.80634E-004	-8.92117E-001	-3.68555E-004	0.00000E+000	-8.91138E-001	0.00000E+000	9	...........
	270	6.040000	-7.95235E-004	-8.90114E-001	-3.65020E-004	0.00000E+000	-8.89140E-001	0.00000E+000	9	...........
	271	6.080000	-8.09696E-004	-8.88122E-001	-3.61530E-004	0.00000E+000	-8.87143E-001	0.00000E+000	9	...........
	272	6.120000	-8.24020E-004	-8.86106E-001	-3.58094E-004	0.00000E+000	-8.85133E-001	0.00000E+000	9	...........
	273	6.160000	-8.38219E-004	-8.84093E-001	-3.54984E-004	0.00000E+000	-8.83135E-001	0.00000E+000	9	...........
	274	6.200000	-8.52285E-004	-8.82098E-001	-3.51652E-004	0.00000E+000	-8.81137E-001	0.00000E+000	9	...........
	275	6.240000	-8.66233E-004	-8.80090E-001	-3.48682E-004	0.00000E+000	-8.79140E-001	0.00000E+000	9	...........
	276	6.280000	-8.80054E-004	-8.78088E-001	-3.45540E-004	0.00000E+000	-8.77142E-001	0.00000E+000	9	...........
	277	6.320000	-8.93756E-004	-8.76087E-001	-3.42555E-004	0.00000E+000	-8.75132E-001	0.00000E+000	9	...........
	278	6.360000	-9.07344E-004	-8.74072E-001	-3.39697E-004	0.00000E+000	-8.73135E-001	0.00000E+000	9	...........
	279	6.400000	-9.20813E-004	-8.72084E-001	-3.36729E-004	0.00000E+000	-8.71137E-001	0.00000E+000	9	...........
	280	6.440000	-9.34173E-004	-8.70055E-001	-3.33999E-004	0.00000E+000	-8.69140E-001	0.00000E+000	9	...........
	281	6.480000	-9.47419E-004	-8.68053E-001	-3.31146E-004	0.00000E+000	-8.67142E-001	0.00000E+000	9	...........
	282	6.520000	-9.60553E-004	-8.66056E-001	-3.28349E-004	0.00000E+000	-8.65132E-001	0.00000E+000	9	...........
	283	6.560000	-9.73583E-004	-8.64048E-001	-3.25757E-004	0.00000E+000	-8.63135E-001	0.00000E+000	9	...........
	284	6.600000	-9.86503E-004	-8.62049E-001	-3.22985E-004	0.00000E+000	-8.61137E-001	0.00000E+000	9	...........
	285	6.640000	-9.99319E-004	-8.60050E-001	-3.20399E-004	0.00000E+000	-8.59140E-001	0.00000E+000	9	...........
	286	6.680000	-1.01203E-003	-8.58043E-001	-3.17770E-004	0.00000E+000	-8.57142E-001	0.00000E+000	9	...........
	287	6.720000	-1.02463E-003	-8.56032E-001	-3.15095E-004	0.00000E+000	-8.55132E-001	0.00000E+000	9	...........
	288	6.760000	-1.03714E-003	-8.54046E-001	-3.12695E-004	0.00000E+000	-8.53135E-001	0.00000E+000	9	...........
	289	6.800000	-1.04954E-003	-8.52044E-001	-3.10011E-004	0.00000E+000	-8.51137E-001	0.00000E+000	9	...........
	290	6.840000	-1.06185E-003	-8.50051E-001	-3.07616E-004	0.00000E+000	-8.49139E-001	0.00000E+000	9	...........
	291	6.880000	-1.07405E-003	-8.48047E-001	-3.05031E-004	0.00000E+000	-8.47142E-001	0.00000E+000	9	...........
	292	6.920000	-1.08615E-003	-8.46034E-001	-3.02510E-004	0.00000E+000	-8.45144E-001	0.00000E+000	9	...........
	293	6.960000	-1.09816E-003	-8.44019E-001	-3.00177E-004	0.00000E+000	-8.43134E-001	0.00000E+000	9	...........
	294	7.000000	-1.11006E-003	-8.42027E-001	-2.97590E-004	0.00000E+000	-8.41137E-001	0.00000E+000	9	...........
	295	7.040000	-1.12187E-003	-8.40018E-001	-2.95283E-004	0.00000E+000	-8.39139E-001	0.00000E+000	9	...........
	296	7.080000	-1.13358E-003	-8.38031E-001	-2.92803E-004	0.00000E+000	-8.37142E-001	0.00000E+000	9	...........
	297	7.120000	-1.14520E-003	-8.36030E-001	-2.90415E-004	0.00000E+000	-8.35144E-001	0.00000E+000	9	...........
	298	7.160000	-1.15672E-003	-8.34016E-001	-2.88093E-004	0.00000E+000	-8.33134E-001	0.00000E+000	9	...........
	299	7.200000	-1.16815E-003	-8.32012E-001	-2.85617E-004	0.00000E+000	-8.31137E-001	0.00000E+000	9	...........
	300	7.240000	-1.17948E-003	-8.30007E-001	-2.83311E-004	0.00000E+000	-8.29139E-001	0.00000E+000	9	...........
	301	7.280000	-1.19072E-003	-8.28003E-001	-2.80917E-004	0.00000E+000	-8.27142E-001	0.00000E+000	9	...........
	302	7.320000	-1.20186E-003	-8.26000E-001	-2.78511E-004	0.00000E+000	-8.25144E-001	0.00000E+000	9	...........
	303	7.360000	-1.21291E-003	-8.23999E-001	-2.76286E-004	0.00000E+000	-8.23134E-001	0.00000E+000	9	...........
	304	7.400000	-1.22386E-003	-8.22002E-001	-2.73809E-004	0.00000E+000	-8.21136E-001	0.00000E+000	9	...........
	305	7.440000	-1.23472E-003	-8.19981E-001	-2.71587E-004	0.00000E+000	-8.19139E-001	0.00000E+000	9	...........
	306	7.480000	-1.24549E-003	-8.17996E-001	-2.69189E-004	0.00000E+000	-8.17141E-001	0.00000E+000	9	...........
	307	7.520000	-1.25616E-003	-8.15998E-001	-2.66806E-004	0.00000E+000	-8.15144E-001	0.00000E+000	9	...........
	308	7.560000	-1.26675E-003	-8.13994E-001	-2.64604E-004	0.00000E+000	-8.13134E-001	0.00000E+000	9	...........
	309	7.600000	-1.27723E-003	-8.11989E-001	-2.62123E-004	0.00000E+000	-8.11136E-001	0.00000E+000	9	...........
	310	7.640000	-1.28763E-003	-8.09984E-001	-2.59924E-004	0.00000E+000	-8.09139E-001	0.00000E+000	9	...........
	311	7.680000	-1.29793E-003	-8.07992E-001	-2.57504E-004	0.00000E+000	-8.07141E-001	0.00000E+000	9	...........
	312	7.720000	-1.30814E-003	-8.05978E-001	-2.55172E-004	0.00000E+000	-8.05144E-001	0.00000E+000	9	...........
	313	7.760000	-1.31825E-003	-8.03964E-001	-2.52933E-004	0.00000E+000	-8.03134E-001	0.00000E+000	9	...........
	314	7.800000	-1.32827E-003	-8.01990E-001	-2.50459E-004	0.00000E+000	-8.01136E-001	0.00000E+000	9	...........
	315	7.840000	-1.33820E-003	-7.99964E-001	-2.48237E-004	0.00000E+000	-7.99138E-001	0.00000E+000	9	...........
	316	7.880000	-1.34804E-003	-7.97983E-001	-2.45827E-004	0.00000E+000	-7.97141E-001	0.00000E+000	9	...........
	317	7.920000	-1.35777E-003	-7.95974E-001	-2.43488E-004	0.00000E+000	-7.95143E-001	0.00000E+000	9	...........
	318	7.960000	-1.36742E-003	-7.93940E-001	-2.41217E-004	0.00000E+000	-7.93133E-001	0.00000E+000	9	...........
	319	8.000000	-1.37697E-003	-7.91974E-001	-2.38761E-004	0.00000E+000	-7.91136E-001	0.00000E+000	9	...........
	320	8.040000	-1.38643E-003	-7.89968E-001	-2.36495E-004	0.00000E+000	-7.89138E-001	0.00000E+000	9	...........
	321	8.080000	-1.39580E-003	-7.87956E-001	-2.34090E-004	0.00000E+000	-7.87141E-001	0.00000E+000	9	...........
	322	8.120000	-1.40506E-003	-7.85959E-001	-2.31676E-004	0.00000E+000	-7.85143E-001	0.00000E+000	9	...........
	323	8.160000	-1.41424E-003	-7.83955E-001	-2.29435E-004	0.00000E+000	-7.83133E-001	0.00000E+000	9	...........
	324	8.200000	-1.42332E-003	-7.81964E-001	-2.26872E-004	0.00000E+000	-7.81136E-001	0.00000E+000	9	...........
	325	8.240000	-1.43230E-003	-7.79949E-001	-2.24635E-004	0.00000E+000	-7.79138E-001	0.00000E+000	9	...........
	326	8.280000	-1.44119E-003	-7.77955E-001	-2.22154E-004	0.00000E+000	-7.77141E-001	0.00000E+000	9	...........
	327	8.320000	-1.44998E-003	-7.75948E-001	-2.19715E-004	0.00000E+000	-7.75143E-001	0.00000E+000	9	...........
	328	8.360000	-1.45867E-003	-7.73957E-001	-2.17425E-004	0.00000E+000	-7.73133E-001	0.00000E+000	9	...........
	329	8.400000	-1.46727E-003	-7.71954E-001	-2.14830E-004	0.00000E+000	-7.71136E-001	0.00000E+000	9	...........
	330	8.440000	-1.47577E-003	-7.69926E-001	-2.12582E-004	0.00000E+000	-7.69138E-001	0.00000E+000	9	...........
	331	8.480000	-1.48417E-003	-7.67927E-001	-2.10026E-004	0.00000E+000	-7.67140E-001	0.00000E+000	9	...........
	332	8.520000	-1.49247E-003	-7.65916E-001	-2.07568E-004	0.00000E+000	-7.65143E-001	0.00000E+000	9	...........
	333	8.559999	-1.50068E-003	-7.63912E-001	-2.05209E-004	0.00000E+000	-7.63133E-001	0.00000E+000	9	...........
	334	8.599999	-1.50879E-003	-7.61918E-001	-2.02577E-004	0.00000E+000	-7.61135E-001	0.00000E+000	9	...........
	335	8.639999	-1.51679E-003	-7.59900E-001	-2.00216E-004	0.00000E+000	-7.59138E-001	0.00000E+000	9	...........
	336	8.679999	-1.52470E-003	-7.57909E-001	-1.97669E-004	0.00000E+000	-7.57140E-001	0.00000E+000	9	...........
	337	8.720000	-1.53251E-003	-7.55899E-001	-1.95111E-004	0.00000E+000	-7.55143E-001	0.00000E+000	9	...........
	338	8.760000	-1.54021E-003	-7.53886E-001	-1.92736E-004	0.00000E+000	-7.53133E-001	0.00000E+000	9	...........
	339	8.800000	-1.54782E-003	-7.51902E-001	-1.90010E-004	0.00000E+000	-7.51135E-001	0.00000E+000	9	...........
	340	8.840000	-1.55532E-003	-7.49900E-001	-1.87586E-004	0.00000E+000	-7.49138E-001	0.00000E+000	9	...........
	341	8.880000	-1.56272E-003	-7.47903E-001	-1.84976E-004	0.00000E+000	-7.47140E-001	0.00000E+000	9	...........
	342	8.920000	-1.57001E-003	-7.45904E-001	-1.82342E-004	0.00000E+000	-7.45143E-001	0.00000E+000	9	...........
	343	8.960000	-1.57721E-003	-7.43894E-001	-1.79933E-004	0.00000E+000	-7.43133E-001	0.00000E+000	9	...........
	344	9.000000	-1.58429E-003	-7.41888E-001	-1.77078E-004	0.00000E+000	-7.41135E-001	0.00000E+000	9	...........
	345	9.040000	-1.59128E-003	-7.39873E-001	-1.74648E-004	0.00000E+000	-7.39137E-001	0.00000E+000	9	...........
	346	9.080000	-1.59815E-003	-7.37888E-001	-1.71906E-004	0.00000E+000	-7.37140E-001	0.00000E+000	9	...........
	347	9.120000	-1.60492E-003	-7.35880E-001	-1.69222E-004	0.00000E+000	-7.35142E-001	0.00000E+000	9	...........
	348	9.160000	-1.61159E-003	-7.33867E-001	-1.66699E-004	0.00000E+000	-7.33132E-001	0.00000E+000	9	...........
	349	9.200000	-1.61814E-003	-7.31881E-001	-1.63764E-004	0.00000E+000	-7.31135E-001	0.00000E+000	9	...........
	350	9.240000	-1.62459E-003	-7.29857E-001	-1.61230E-004	0.00000E+000	-7.29137E-001	0.00000E+000	9	...........
	351	9.280000	-1.63093E-003	-7.27877E-001	-1.58404E-004	0.00000E+000	-7.27140E-001	0.00000E+000	9	...........
	352	9.320000	-1.63715E-003	-7.25862E-001	-1.55648E-004	0.00000E+000	-7.25142E-001	0.00000E+000	9	...........
	353	9.360000	-1.64327E-003	-7.23829E-001	-1.52930E-004	0.00000E+000	-7.23132E-001	0.00000E+000	9	...........
	354	9.400000	-1.64927E-003	-7.21864E-001	-1.50013E-004	0.00000E+000	-7.21135E-001	0.00000E+000	9	...........
	355	9.440000	-1.65516E-003	-7.19868E-001	-1.47309E-004	0.00000E+000	-7.19137E-001	0.00000E+000	9	...........
	356	9.480000	-1.66094E-003	-7.17858E-001	-1.44456E-004	0.00000E+000	-7.17140E-001	0.00000E+000	9	...........
	357	9.520000	-1.66660E-003	-7.15841E-001	-1.41473E-004	0.00000E+000	-7.15142E-001	0.00000E+000	9	...........
	358	9.559999	-1.67215E-003	-7.13839E-001	-1.38820E-004	0.00000E+000	-7.13144E-001	0.00000E+000	9	...........
	359	9.599999	-1.67758E-003	-7.11832E-001	-1.35575E-004	0.00000E+000	-7.11134E-001	0.00000E+000	9	...........
	360	9.639999	-1.68289E-003	-7.09832E-001	-1.32873E-004	0.00000E+000	-7.09137E-001	0.00000E+000	9	...........
	361	9.679999	-1.68808E-003	-7.07845E-001	-1.29795E-004	0.00000E+000	-7.07139E-001	0.00000E+000	9	...........
	362	9.719999	-1.69315E-003	-7.05835E-001	-1.26657E-004	0.00000E+000	-7.05142E-001	0.00000E+000	9	...........
	363	9.760000	-1.69810E-003	-7.03825E-001	-1.23908E-004	0.00000E+000	-7.03144E-001	0.00000E+000	9	...........
[...]
	2539	96.8	3.95610E-004	-4.48294E-001	2.96349E-004	0.00000E+000	-4.47996E-001	0.00000E+000	9	...........
	2540	96.84	4.07202E-004	-4.50317E-001	2.89784E-004	0.00000E+000	-4.50006E-001	0.00000E+000	9	...........
	2541	96.88	4.18505E-004	-4.52314E-001	2.82588E-004	0.00000E+000	-4.52004E-001	0.00000E+000	9	...........
	2542	96.92	4.29527E-004	-4.54307E-001	2.75547E-004	0.00000E+000	-4.54001E-001	0.00000E+000	9	...........
	2543	96.96	4.40269E-004	-4.56305E-001	2.68556E-004	0.00000E+000	-4.55999E-001	0.00000E+000	9	...........
	2544	97	4.50703E-004	-4.58309E-001	2.60834E-004	0.00000E+000	-4.57996E-001	0.00000E+000	9	...........
	2545	97.04	4.60847E-004	-4.60322E-001	2.53621E-004	0.00000E+000	-4.59994E-001	0.00000E+000	9	...........
	2546	97.08	4.70665E-004	-4.62346E-001	2.45441E-004	0.00000E+000	-4.62004E-001	0.00000E+000	9	...........
	2547	97.12	4.80161E-004	-4.64346E-001	2.37405E-004	0.00000E+000	-4.64001E-001	0.00000E+000	9	...........
	2548	97.16	4.89325E-004	-4.66344E-001	2.29098E-004	0.00000E+000	-4.65999E-001	0.00000E+000	9	...........
	2549	97.2	4.98127E-004	-4.68342E-001	2.20054E-004	0.00000E+000	-4.67996E-001	0.00000E+000	9	...........
	2550	97.24	5.06577E-004	-4.70345E-001	2.11248E-004	0.00000E+000	-4.69994E-001	0.00000E+000	9	...........
	2551	97.28	5.14655E-004	-4.72357E-001	2.01933E-004	0.00000E+000	-4.72004E-001	0.00000E+000	9	...........
	2552	97.32	5.22356E-004	-4.74362E-001	1.92525E-004	0.00000E+000	-4.74002E-001	0.00000E+000	9	...........
	2553	97.36	5.29696E-004	-4.76362E-001	1.83510E-004	0.00000E+000	-4.75999E-001	0.00000E+000	9	...........
	2554	97.4	5.36658E-004	-4.78356E-001	1.74041E-004	0.00000E+000	-4.77997E-001	0.00000E+000	9	...........
	2555	97.44	5.43284E-004	-4.80360E-001	1.65656E-004	0.00000E+000	-4.79994E-001	0.00000E+000	9	...........
	2556	97.48	5.49559E-004	-4.82375E-001	1.56891E-004	0.00000E+000	-4.82004E-001	0.00000E+000	9	...........
	2557	97.52	5.55517E-004	-4.84361E-001	1.48927E-004	0.00000E+000	-4.84002E-001	0.00000E+000	9	...........
	2558	97.56	5.61193E-004	-4.86351E-001	1.41910E-004	0.00000E+000	-4.85999E-001	0.00000E+000	9	...........
	2559	97.6	5.66581E-004	-4.88383E-001	1.34697E-004	0.00000E+000	-4.87997E-001	0.00000E+000	9	...........
	2560	97.64	5.71740E-004	-4.90380E-001	1.28980E-004	0.00000E+000	-4.89994E-001	0.00000E+000	9	...........
	2561	97.68	5.76657E-004	-4.92379E-001	1.22928E-004	0.00000E+000	-4.92004E-001	0.00000E+000	9	...........
	2562	97.72	5.81370E-004	-4.94395E-001	1.17834E-004	0.00000E+000	-4.94002E-001	0.00000E+000	9	...........
	2563	97.76	5.85904E-004	-4.96385E-001	1.13339E-004	0.00000E+000	-4.95999E-001	0.00000E+000	9	...........
	2564	97.8	5.90258E-004	-4.98387E-001	1.08850E-004	0.00000E+000	-4.97997E-001	0.00000E+000	9	...........
	2565	97.84	5.94473E-004	-5.00399E-001	1.05374E-004	0.00000E+000	-4.99995E-001	0.00000E+000	9	...........
	2566	97.88	5.98542E-004	-5.02412E-001	1.01714E-004	0.00000E+000	-5.02005E-001	0.00000E+000	9	...........
	2567	97.92	6.02478E-004	-5.04407E-001	9.84115E-005	0.00000E+000	-5.04002E-001	0.00000E+000	9	...........
	2568	97.96	6.06312E-004	-5.06395E-001	9.58441E-005	0.00000E+000	-5.06000E-001	0.00000E+000	9	...........
	2569	98	6.10017E-004	-5.08396E-001	9.26272E-005	0.00000E+000	-5.07997E-001	0.00000E+000	9	...........
	2570	98.04	6.13625E-004	-5.10412E-001	9.02114E-005	0.00000E+000	-5.09995E-001	0.00000E+000	9	...........
	2571	98.08	6.17120E-004	-5.12414E-001	8.73664E-005	0.00000E+000	-5.12005E-001	0.00000E+000	9	...........
	2572	98.12	6.20500E-004	-5.14430E-001	8.45073E-005	0.00000E+000	-5.14002E-001	0.00000E+000	9	...........
	2573	98.16	6.23786E-004	-5.16436E-001	8.21331E-005	0.00000E+000	-5.16000E-001	0.00000E+000	9	...........
	2574	98.2	6.26935E-004	-5.18416E-001	7.87363E-005	0.00000E+000	-5.17997E-001	0.00000E+000	9	...........
	2575	98.24	6.30025E-004	-5.20504E-001	7.72540E-005	0.00000E+000	-5.19995E-001	0.00000E+000	8	...........
	2576	98.28	6.32927E-004	-5.22556E-001	7.25401E-005	0.00000E+000	-5.22005E-001	0.00000E+000	8	...........
	2577	98.32	6.35698E-004	-5.24568E-001	6.92699E-005	0.00000E+000	-5.24002E-001	0.00000E+000	8	...........
	2578	98.36	6.38350E-004	-5.26590E-001	6.63158E-005	0.00000E+000	-5.26000E-001	0.00000E+000	8	...........
	2579	98.4	6.40878E-004	-5.28563E-001	6.31852E-005	0.00000E+000	-5.27998E-001	0.00000E+000	8	...........
	2580	98.44	6.43293E-004	-5.30602E-001	6.03922E-005	0.00000E+000	-5.29995E-001	0.00000E+000	8	...........
	2581	98.48	6.45597E-004	-5.32586E-001	5.75787E-005	0.00000E+000	-5.32005E-001	0.00000E+000	8	...........
	2582	98.52	6.47792E-004	-5.34607E-001	5.48889E-005	0.00000E+000	-5.34003E-001	0.00000E+000	8	...........
	2583	98.56	6.49892E-004	-5.36615E-001	5.25101E-005	0.00000E+000	-5.36000E-001	0.00000E+000	8	...........
	2584	98.6	6.51899E-004	-5.38581E-001	5.01496E-005	0.00000E+000	-5.37998E-001	0.00000E+000	8	...........
	2585	98.64	6.53815E-004	-5.40619E-001	4.79076E-005	0.00000E+000	-5.39995E-001	0.00000E+000	8	...........
	2586	98.68	6.55656E-004	-5.42608E-001	4.60346E-005	0.00000E+000	-5.42005E-001	0.00000E+000	8	...........
	2587	98.72	6.57406E-004	-5.44608E-001	4.37520E-005	0.00000E+000	-5.44003E-001	0.00000E+000	8	...........
	2588	98.76	6.59088E-004	-5.46628E-001	4.20353E-005	0.00000E+000	-5.46000E-001	0.00000E+000	8	...........
	2589	98.8	6.60667E-004	-5.48587E-001	3.94918E-005	0.00000E+000	-5.47998E-001	0.00000E+000	8	...........
	2590	98.84	6.62144E-004	-5.50617E-001	3.69143E-005	0.00000E+000	-5.49995E-001	0.00000E+000	8	...........
	2591	98.88	6.63493E-004	-5.52625E-001	3.37273E-005	0.00000E+000	-5.52005E-001	0.00000E+000	8	...........
	2592	98.92	6.64698E-004	-5.54631E-001	3.01181E-005	0.00000E+000	-5.54003E-001	0.00000E+000	8	...........
	2593	98.96	6.65770E-004	-5.56630E-001	2.68009E-005	0.00000E+000	-5.56001E-001	0.00000E+000	8	...........
	2594	99	6.66676E-004	-5.58615E-001	2.26487E-005	0.00000E+000	-5.57998E-001	0.00000E+000	8	...........
	2595	99.04	6.67434E-004	-5.60637E-001	1.89578E-005	0.00000E+000	-5.59996E-001	0.00000E+000	8	...........
	2596	99.08	6.68023E-004	-5.62616E-001	1.47354E-005	0.00000E+000	-5.62006E-001	0.00000E+000	8	...........
	2597	99.12	6.68450E-004	-5.64647E-001	1.06517E-005	0.00000E+000	-5.64003E-001	0.00000E+000	8	...........
	2598	99.16	6.68714E-004	-5.66651E-001	6.60586E-006	0.00000E+000	-5.66001E-001	0.00000E+000	8	...........
	2599	99.2	6.68566E-004	-5.68912E-001	-3.68160E-006	0.00000E+000	-5.67998E-001	0.00000E+000	7	...........
	2600	99.24	6.68245E-004	-5.70917E-001	-8.04773E-006	0.00000E+000	-5.69996E-001	0.00000E+000	7	...........
	2601	99.28	6.67807E-004	-5.72905E-001	-1.09373E-005	0.00000E+000	-5.72006E-001	0.00000E+000	7	....ih..i..
	2602	99.32	6.67529E-004	-5.74543E-001	-6.95993E-006	0.00000E+000	-5.74003E-001	0.00000E+000	8	...........
	2603	99.36	6.67091E-004	-5.76145E-001	-1.09373E-005	0.00000E+000	-5.76001E-001	0.00000E+000	7	....ih..i..
	2604	99.4	6.66501E-004	-5.78520E-001	-1.47680E-005	0.00000E+000	-5.77998E-001	0.00000E+000	8	...........
	2605	99.44	6.65619E-004	-5.80651E-001	-2.20486E-005	0.00000E+000	-5.79996E-001	0.00000E+000	8	...........
	2606	99.48	6.64569E-004	-5.82644E-001	-2.62521E-005	0.00000E+000	-5.82006E-001	0.00000E+000	8	...........
	2607	99.52	6.63341E-004	-5.84674E-001	-3.06921E-005	0.00000E+000	-5.84004E-001	0.00000E+000	8	...........
	2608	99.56	6.61967E-004	-5.86676E-001	-3.43576E-005	0.00000E+000	-5.86001E-001	0.00000E+000	8	...........
	2609	99.6	6.60424E-004	-5.88656E-001	-3.85722E-005	0.00000E+000	-5.87999E-001	0.00000E+000	8	...........
	2610	99.64	6.58733E-004	-5.90690E-001	-4.22666E-005	0.00000E+000	-5.89996E-001	0.00000E+000	8	...........
	2611	99.68	6.56885E-004	-5.92678E-001	-4.62024E-005	0.00000E+000	-5.92006E-001	0.00000E+000	8	...........
	2612	99.72	6.54882E-004	-5.94692E-001	-5.00709E-005	0.00000E+000	-5.94004E-001	0.00000E+000	8	...........
	2613	99.76	6.52737E-004	-5.96691E-001	-5.36290E-005	0.00000E+000	-5.96001E-001	0.00000E+000	8	...........
	2614	99.8	6.50429E-004	-5.98685E-001	-5.76933E-005	0.00000E+000	-5.97999E-001	0.00000E+000	8	...........
	2615	99.84	6.47977E-004	-6.00693E-001	-6.13077E-005	0.00000E+000	-5.99996E-001	0.00000E+000	8	...........
	2616	99.88	6.45361E-004	-6.02673E-001	-6.53855E-005	0.00000E+000	-6.01994E-001	0.00000E+000	8	...........
	2617	99.92	6.42585E-004	-6.04699E-001	-6.94046E-005	0.00000E+000	-6.04004E-001	0.00000E+000	8	...........
	2618	99.96	6.39645E-004	-6.06705E-001	-7.35065E-005	0.00000E+000	-6.06001E-001	0.00000E+000	8	...........
	2619	100	6.36534E-004	-6.08678E-001	-7.77784E-005	0.00000E+000	-6.07999E-001	0.00000E+000	8	...........
	2620	100.04	6.33251E-004	-6.10714E-001	-8.20654E-005	0.00000E+000	-6.09997E-001	0.00000E+000	8	...........
QCMDESCRIPTION	LABEL		Description
QCMDB	LABEL	Resonator_db	QCM Database
QCMOFFSETTIME	QUANT	917.612	QCM Offset Time (s)
CALIBRATIONFACTOR	QUANT	226	Calibration Factor (Hz cm^2/ug)
QCMCurve	DTABLE
	Pt	T	fs	fp	chisq	As	Ap
	#	s	MHz	MHz	arb	Mag	Mag
	1954	917.612	9.9518	9.96865	0.000	1.31564	1.38969
	1955	918.077	9.95147	9.96803	0.000	1.32279	1.396
	1956	918.542	9.95175	9.96859	0.000	1.32139	1.39572
	1957	919.012	9.95173	9.96856	0.000	1.32141	1.39575
	1958	919.482	9.95169	9.96853	0.000	1.32143	1.39575
	1959	919.952	9.95166	9.9685	0.000	1.32145	1.39577
	1960	920.427	9.95163	9.96847	0.000	1.32141	1.39575
	1961	920.892	9.95162	9.96846	0.000	1.32146	1.39573
	1962	921.362	9.9516	9.96843	0.000	1.32147	1.3958
	1963	921.832	9.95158	9.96843	0.000	1.32148	1.39577
	1964	922.297	9.95158	9.96838	0.000	1.32151	1.39586
	1965	922.762	9.95156	9.96837	0.000	1.3216	1.39591
	1966	923.222	9.95155	9.96835	0.000	1.32165	1.39598
	1967	923.692	9.95153	9.96836	0.000	1.32166	1.39601
	1968	924.167	9.95151	9.96834	0.000	1.32167	1.39607
	1969	924.632	9.95151	9.96833	0.000	1.32173	1.39611
	1970	925.102	9.9515	9.96829	0.000	1.32177	1.39615
	1971	925.572	9.9515	9.96828	0.000	1.32178	1.39615
	1972	926.037	9.95149	9.96828	0.000	1.3218	1.39617
	1973	926.502	9.95147	9.96828	0.000	1.32179	1.39619
	1974	926.967	9.95145	9.96827	0.000	1.32191	1.39623
	1975	927.437	9.95145	9.96825	0.000	1.32185	1.39624
	1976	927.907	9.95144	9.96825	0.000	1.32187	1.39622
	1977	928.372	9.95144	9.96825	0.000	1.3218	1.39614
	1978	928.842	9.95143	9.96827	0.000	1.3218	1.39611
	1979	929.322	9.95143	9.96826	0.000	1.32174	1.39609
	1980	929.792	9.95147	9.96827	0.000	1.32172	1.39605
	1981	930.262	9.95151	9.96836	0.000	1.32163	1.39592
	1982	930.737	9.95158	9.96845	0.000	1.32158	1.3959
	1983	931.202	9.95163	9.96851	0.000	1.32156	1.39592
	1984	931.672	9.95169	9.96853	0.000	1.3215	1.3959
	1985	932.152	9.9517	9.96856	0.000	1.32153	1.3959
	1986	932.632	9.95174	9.96859	0.000	1.32148	1.39587
	1987	933.112	9.95177	9.96862	0.000	1.32148	1.39589
	1988	933.582	9.9518	9.96866	0.000	1.32149	1.39588
	1989	934.047	9.95185	9.96872	0.000	1.32141	1.39591
	1990	934.522	9.95188	9.96873	0.000	1.32141	1.39589
	1991	934.992	9.95187	9.96873	0.000	1.32144	1.39593
	1992	935.452	9.95187	9.96873	0.000	1.32146	1.39589
	1993	935.917	9.95184	9.96871	0.000	1.32146	1.3959
	1994	936.382	9.95182	9.96867	0.000	1.32146	1.39585
	1995	936.852	9.95179	9.96865	0.000	1.32149	1.39586
	1996	937.322	9.95179	9.96863	0.000	1.32143	1.39581
	1997	937.787	9.95177	9.96861	0.000	1.3214	1.39579
	1998	938.252	9.95175	9.96858	0.000	1.32145	1.39584
	1999	938.722	9.95172	9.96857	0.000	1.32152	1.39583
	2000	939.192	9.95169	9.96853	0.000	1.32146	1.39584
	2001	939.657	9.95167	9.96848	0.000	1.32149	1.3958
	2002	940.122	9.95164	9.96844	0.000	1.32146	1.39578
	2003	940.582	9.95161	9.96844	0.000	1.3215	1.39583
	2004	941.062	9.95158	9.96843	0.000	1.32146	1.39582
	2005	941.542	9.95156	9.96837	0.000	1.32154	1.39583
	2006	942.007	9.95155	9.96836	0.000	1.3215	1.39587
	2007	942.472	9.95153	9.96833	0.000	1.32154	1.39593
	2008	942.942	9.95151	9.96832	0.000	1.32161	1.39594
	2009	943.412	9.95151	9.9683	0.000	1.32164	1.39597
	2010	943.877	9.95148	9.9683	0.000	1.32167	1.39599
	2011	944.352	9.95148	9.96827	0.000	1.32169	1.39607
	2012	944.822	9.95144	9.96829	0.000	1.32175	1.39613
	2013	945.282	9.95144	9.96825	0.000	1.32182	1.39619
	2014	945.747	9.95143	9.96824	0.000	1.32186	1.39626
	2015	946.222	9.95142	9.96824	0.000	1.32185	1.39625
	2016	946.692	9.95141	9.96821	0.000	1.32191	1.39627
	2017	947.152	9.9514	9.96818	0.000	1.32196	1.39632
	2018	947.617	9.95139	9.96819	0.000	1.32191	1.39626
	2019	948.092	9.95137	9.96819	0.000	1.32193	1.3963
	2020	948.562	9.95138	9.96817	0.000	1.3219	1.39622
	2021	949.022	9.95137	9.96818	0.000	1.3219	1.39617
	2022	949.487	9.95138	9.96819	0.000	1.32181	1.39612
	2023	949.952	9.95141	9.96824	0.000	1.32175	1.39608
	2024	950.422	9.95147	9.9683	0.000	1.32171	1.39603
	2025	950.892	9.95155	9.96838	0.000	1.32168	1.396
	2026	951.357	9.95161	9.96843	0.000	1.32163	1.396
	2027	951.822	9.95165	9.9685	0.000	1.32156	1.39597
	2028	952.287	9.95168	9.96852	0.000	1.32152	1.39593
	2029	952.762	9.95171	9.96856	0.000	1.32149	1.39588
	2030	953.232	9.95174	9.96861	0.000	1.32149	1.39594
	2031	953.692	9.95178	9.96864	0.000	1.32149	1.39598
	2032	954.157	9.95182	9.96868	0.000	1.32153	1.396
	2033	954.622	9.95184	9.96868	0.000	1.32145	1.39592
	2034	955.092	9.95184	9.96866	0.000	1.32144	1.39595
	2035	955.562	9.95183	9.96864	0.000	1.32147	1.39593
	2036	956.027	9.9518	9.96862	0.000	1.32154	1.39596
	2037	956.492	9.95178	9.96863	0.000	1.32147	1.39588
	2038	956.962	9.95176	9.96861	0.000	1.32146	1.39584
	2039	957.432	9.95174	9.96857	0.000	1.32148	1.39586
	2040	957.897	9.95172	9.96857	0.000	1.32148	1.39586
	2041	958.362	9.9517	9.96854	0.000	1.32151	1.39586
	2042	958.832	9.95167	9.96851	0.000	1.32149	1.39584
	2043	959.302	9.95163	9.96847	0.000	1.32154	1.3959
	2044	959.767	9.9516	9.96845	0.000	1.32152	1.39586
	2045	960.232	9.95158	9.96838	0.000	1.32159	1.39591
	2046	960.692	9.95155	9.96837	0.000	1.32156	1.39587
	2047	961.162	9.95153	9.96833	0.000	1.32157	1.3959
	2048	961.637	9.95151	9.96832	0.000	1.3216	1.39592
	2049	962.102	9.95148	9.96831	0.000	1.32166	1.39597
	2050	962.562	9.95148	9.96828	0.000	1.32165	1.39601
	2051	963.032	9.95145	9.96827	0.000	1.32171	1.39604
	2052	963.507	9.95144	9.96824	0.000	1.32171	1.39604
	2053	963.972	9.95143	9.96825	0.000	1.32167	1.39602
	2054	964.432	9.95142	9.96822	0.000	1.32173	1.3961
	2055	964.902	9.95141	9.96821	0.000	1.32176	1.39613
	2056	965.377	9.95138	9.9682	0.000	1.32182	1.39621
	2057	965.842	9.95139	9.96816	0.000	1.32187	1.39625
	2058	966.302	9.95136	9.96816	0.000	1.32194	1.39632
	2059	966.767	9.95135	9.96815	0.000	1.32198	1.39634
	2060	967.242	9.95133	9.96815	0.000	1.322	1.39636
	2061	967.712	9.95133	9.96812	0.000	1.32198	1.39634
	2062	968.177	9.95132	9.96812	0.000	1.32196	1.39632
	2063	968.642	9.95132	9.96812	0.000	1.32196	1.3963
	2064	969.102	9.95132	9.9681	0.000	1.32193	1.39625
	2065	969.572	9.95133	9.96814	0.000	1.32183	1.39617
	2066	970.047	9.95136	9.96818	0.000	1.32184	1.39617
	2067	970.512	9.95143	9.96826	0.000	1.3218	1.39614
	2068	970.972	9.95151	9.96836	0.000	1.32171	1.39609
	2069	971.437	9.95156	9.9684	0.000	1.32174	1.39613
	2070	971.912	9.95162	9.96845	0.000	1.32164	1.39605
	2071	972.382	9.95164	9.96846	0.000	1.32165	1.39607
	2072	972.842	9.95168	9.96851	0.000	1.32162	1.39601
	2073	973.307	9.95169	9.96856	0.000	1.32161	1.39606
	2074	973.782	9.95175	9.9686	0.000	1.32161	1.39606
	2075	974.252	9.95179	9.96862	0.000	1.32154	1.39602
	2076	974.712	9.9518	9.96863	0.000	1.32156	1.39604
	2077	975.177	9.9518	9.96862	0.000	1.32159	1.39602
	2078	975.642	9.95177	9.96861	0.000	1.32155	1.39603
	2079	976.112	9.95176	9.96856	0.000	1.32161	1.39598
	2080	976.582	9.95172	9.96856	0.000	1.3216	1.396
	2081	977.047	9.95171	9.96855	0.000	1.3216	1.39596
	2082	977.512	9.95169	9.96852	0.000	1.32159	1.39595
	2083	977.982	9.95167	9.96851	0.000	1.32156	1.39597
	2084	978.452	9.95166	9.96848	0.000	1.32159	1.39594
	2085	978.917	9.95162	9.96845	0.000	1.32161	1.396
	2086	979.382	9.95159	9.96841	0.000	1.32164	1.39595
	2087	979.852	9.95155	9.96837	0.000	1.32161	1.39597
	2088	980.322	9.95153	9.96833	0.000	1.32163	1.39597
	2089	980.787	9.9515	9.96829	0.000	1.32166	1.39596
	2090	981.252	9.95147	9.96829	0.000	1.32165	1.39594
	2091	981.722	9.95145	9.96829	0.000	1.32167	1.39595
	2092	982.192	9.95144	9.96825	0.000	1.32166	1.39598
	2093	982.662	9.95142	9.96821	0.000	1.32172	1.39602
	2094	983.137	9.95139	9.96822	0.000	1.32174	1.39609
	2095	983.617	9.95138	9.96819	0.000	1.3217	1.39608
	2096	984.097	9.95138	9.96816	0.000	1.32175	1.3961
	2097	984.562	9.95136	9.96816	0.000	1.32177	1.39615
	2098	985.022	9.95135	9.96814	0.000	1.32184	1.3962
	2099	985.492	9.95133	9.96813	0.000	1.32185	1.39624
	2100	985.967	9.95134	9.96811	0.000	1.32193	1.39628
	2101	986.432	9.95131	9.9681	0.000	1.322	1.39634
	2102	986.892	9.95131	9.96807	0.000	1.32198	1.39632
	2103	987.362	9.95128	9.96809	0.000	1.32203	1.39639
	2104	987.837	9.95128	9.96806	0.000	1.32204	1.39633
	2105	988.302	9.95126	9.96807	0.000	1.32199	1.39633
	2106	988.762	9.95126	9.96805	0.000	1.32194	1.39627
	2107	989.227	9.95127	9.96805	0.000	1.32186	1.39615
	2108	989.702	9.95129	9.96808	0.000	1.32187	1.39616
	2109	990.172	9.95131	9.96817	0.000	1.3218	1.39615
	2110	990.632	9.95139	9.96824	0.000	1.32177	1.39613
	2111	991.097	9.95148	9.96832	0.000	1.32168	1.39606
	2112	991.572	9.95154	9.96837	0.000	1.32173	1.39609
	2113	992.042	9.95157	9.96842	0.000	1.32164	1.39605
	2114	992.502	9.9516	9.96843	0.000	1.32163	1.39606
	2115	992.967	9.95163	9.96847	0.000	1.3216	1.39599
	2116	993.432	9.95167	9.96852	0.000	1.32153	1.39599
	2117	993.902	9.95172	9.96855	0.000	1.32159	1.39605
	2118	994.372	9.95175	9.96858	0.000	1.32154	1.396
	2119	994.837	9.95175	9.96859	0.000	1.32154	1.39603
	2120	995.302	9.95175	9.9686	0.000	1.32153	1.39599
	2121	995.767	9.95173	9.96855	0.000	1.32157	1.39604
	2122	996.242	9.9517	9.96853	0.000	1.32159	1.39597
	2123	996.712	9.95168	9.9685	0.000	1.32157	1.39594
	2124	997.172	9.95166	9.9685	0.000	1.32156	1.39592
	2125	997.637	9.95165	9.96848	0.000	1.32151	1.3959
	2126	998.112	9.95164	9.96844	0.000	1.32153	1.39587
	2127	998.582	9.95161	9.96843	0.000	1.32156	1.39591
	2128	999.042	9.95157	9.96839	0.000	1.32156	1.39589
	2129	999.507	9.95154	9.96835	0.000	1.32158	1.3959
	2130	999.972	9.9515	9.96832	0.000	1.32158	1.39587
	2131	1000.43	9.95146	9.96829	0.000	1.32156	1.39588
	2132	1000.9	9.95144	9.96827	0.000	1.32158	1.39589
	2133	1001.38	9.95143	9.96822	0.000	1.32163	1.3959
	2134	1001.84	9.95139	9.96821	0.000	1.32163	1.39596
	2135	1002.3	9.95137	9.96818	0.000	1.32167	1.39599
	2136	1002.77	9.95137	9.96814	0.000	1.32171	1.39601
	2137	1003.24	9.95135	9.96814	0.000	1.32172	1.39604
	2138	1003.71	9.95133	9.96812	0.000	1.32171	1.39602
	2139	1004.17	9.95132	9.9681	0.000	1.32175	1.39606
	2140	1004.64	9.9513	9.96811	0.000	1.32173	1.3961
	2141	1005.11	9.95129	9.96808	0.000	1.32184	1.39617
	2142	1005.58	9.95128	9.96807	0.000	1.32186	1.39618
	2143	1006.04	9.95126	9.96806	0.000	1.3219	1.39626
	2144	1006.51	9.95126	9.96803	0.000	1.32192	1.39627
	2145	1006.97	9.95124	9.96803	0.000	1.32197	1.39629
	2146	1007.44	9.95123	9.96801	0.000	1.322	1.3963
	2147	1007.91	9.95123	9.96801	0.000	1.32197	1.39625
	2148	1008.38	9.95122	9.96799	0.000	1.32195	1.39625
	2149	1008.84	9.95121	9.968	0.000	1.32195	1.39624
	2150	1009.31	9.95123	9.968	0.000	1.32191	1.39616
	2151	1009.78	9.95122	9.96805	0.000	1.32185	1.39614
	2152	1010.25	9.95128	9.9681	0.000	1.32179	1.3961
	2153	1010.71	9.95137	9.96818	0.000	1.32174	1.39606
	2154	1011.18	9.95145	9.96828	0.000	1.32167	1.39603
	2155	1011.66	9.9515	9.96833	0.000	1.32165	1.39603
	2156	1012.12	9.95153	9.96836	0.000	1.3216	1.39598
	2157	1012.58	9.95155	9.9684	0.000	1.32157	1.39601
	2158	1013.05	9.95159	9.96843	0.000	1.32157	1.39599
	2159	1013.53	9.95163	9.96846	0.000	1.32159	1.39599
	2160	1013.99	9.95168	9.96854	0.000	1.3215	1.39601
	2161	1014.45	9.95172	9.96854	0.000	1.32153	1.39601
	2162	1014.92	9.95171	9.96855	0.000	1.32153	1.39598
	2163	1015.39	9.9517	9.96854	0.000	1.32149	1.39595
	2164	1015.86	9.95168	9.9685	0.000	1.32155	1.39596
	2165	1016.32	9.95166	9.96848	0.000	1.3215	1.39589
	2166	1016.79	9.95164	9.96845	0.000	1.32152	1.39589
	2167	1017.25	9.95162	9.96843	0.000	1.32151	1.3959